Wavelength [nm]	Absorption Coef. [cm-1]
296.58727	7.32861
296.29322	7.28489
296.28586	7.24117
295.91901	7.19073
298.06435	7.16218
300.60164	7.33317
300.59485	7.29282
300.58805	7.25246
300.58126	7.21211
302.0079	7.17179
302.00149	7.13368
304.88685	7.24358
304.88006	7.20323
305.1487	7.09607
306.66411	7.1573
308.00584	7.03829
309.44969	7.10019
310.60625	7.1585
312.37634	7.02963
313.46444	7.10699
313.45764	7.06664
313.80327	6.99099
316.66419	6.95573
316.32565	7.07342
317.75002	7.01965
317.74323	6.97929
318.08913	6.90532
320.8755	6.85292
320.61237	6.9928
320.60557	6.95245
321.3155	6.91211
322.37104	6.79611
323.43772	6.74625
323.45999	6.87852
325.14863	6.69159
323.42375	6.66331
324.85153	6.62971
324.8436	6.58263
324.8787	6.79112
326.30534	6.75079
327.7033	6.54009
327.69651	6.49974
327.3306	6.45489
327.71161	6.58941
329.11485	6.41009
328.74932	6.36749
330.53319	6.32045
330.52677	6.28234
331.95341	6.24201
331.97341	6.36083
333.37968	6.19945
334.10885	6.27344
334.0896	6.15911
334.79801	6.1098
334.79122	6.06945
336.57603	6.02801
336.20956	5.9798
337.99418	5.93724
339.41969	5.89019
340.8435	5.83305
342.26901	5.786
341.9282	5.89024
343.33371	5.72437
343.32691	5.68402
343.3205	5.64591
345.10616	5.60952
347.60646	5.5608
348.32997	5.60117
348.67305	5.51038
350.4568	5.46267
352.24163	5.42134
355.02794	5.3686
354.74986	5.41971
357.88485	5.30947
359.03658	5.33908
360.45756	5.26513
363.32783	5.28536
363.60387	5.22215
366.90122	5.2249
367.61153	5.18681
367.60549	5.15094
370.46641	5.11568
371.19134	5.16446
373.32677	5.07707
373.33243	5.11069
375.11347	5.04684
378.33587	5.03008
379.04579	4.98975
380.18212	4.92789
382.18033	4.87682
384.74964	4.8123
384.75689	4.85535
386.17636	4.77243
387.60225	4.72762
387.61697	4.81505
389.38725	4.6873
389.02096	4.64022
389.75749	4.75792
390.80625	4.60158
391.87198	4.54611
391.86556	4.508
393.65104	4.47049
395.0774	4.42848
397.59213	4.46552
398.30093	4.41845
398.29413	4.3781
399.00292	4.33104
398.28111	4.30076
399.34855	4.25538
398.97943	4.19149
402.12704	4.15624
401.47237	4.09906
401.863	4.29074
403.28738	4.23696
403.28172	4.20334
405.05115	4.07054
406.14066	4.15631
406.13387	4.11596
406.87097	4.23703
407.57938	4.18773
408.51538	4.07117
408.26817	4.02185
408.26138	3.98149
408.25458	3.94114
408.24779	3.90079
408.95847	3.86493
408.95016	3.81561
409.003	4.12947
409.65858	3.76631
410.36775	3.72148
410.36095	3.68113
411.7876	3.64081
413.21329	3.59488
415.01981	3.68234
416.44645	3.64202
416.36221	3.56736
417.97862	4.65422
417.68287	4.60041
417.67608	4.56006
417.66928	4.51971
417.66249	4.47935
417.6557	4.439
417.6489	4.39865
417.64211	4.3583
417.63532	4.31794
417.62852	4.27759
417.62173	4.23724
417.61494	4.19689
417.60814	4.15653
417.60135	4.11618
417.23563	4.07246
417.86992	4.00858
417.55776	3.85725
417.55002	3.81129
417.54323	3.77094
417.53643	3.73059
419.00686	3.95031
419.00006	3.90996
418.93345	3.51428
418.92533	3.46608
418.91854	3.42573
418.91175	3.38538
418.54565	3.33941
419.91945	3.69477
419.67224	3.64544
419.66545	3.60509
419.65866	3.56474
420.61541	3.28767
419.60431	3.24192
420.31423	3.20158
420.42746	3.87412
420.42066	3.83377
420.41387	3.79342
420.40708	3.75306
422.0253	3.14781
423.52078	3.09067
424.94855	3.05707
428.89069	3.05827
428.16925	3.03023
430.31148	2.98319
432.0222	2.9274
431.75228	3.02694
434.60707	2.95525
436.31843	2.90328
439.17806	2.86029
440.33326	2.91053
443.19258	2.86574
443.18617	2.82763
443.91609	2.90611
446.40705	2.80191
447.48609	2.82547
450.34334	2.76836
453.49067	2.73143
456.78531	2.71805
457.49599	2.68219
460.64426	2.65087
461.78421	2.61054
464.65561	2.63749
465.7222	2.58707
467.86669	2.55349
469.29418	2.5182
472.08049	2.46546
473.23358	2.50315
476.37966	2.45882
476.82622	2.55702
477.53539	2.5122
480.10591	2.45486
481.81777	2.40579
483.52963	2.35673
486.462	2.32013
487.54076	2.34201
490.6848	2.28558
494.69736	2.27938
494.69208	2.24799
498.99465	2.26153
498.98786	2.22117
503.28665	2.21229
503.28099	2.17866
507.58243	2.18547
507.57752	2.15633
511.88122	2.17658
511.87594	2.1452
516.17851	2.15873
516.17323	2.12735
520.47806	2.15433
520.4724	2.1207
524.77384	2.12751
528.71635	2.13095
530.86254	2.10745
534.44556	2.10416
536.59175	2.08066
540.53257	2.07401
545.19321	2.08587
549.13242	2.06969
553.43197	2.06529
553.42669	2.0339
557.01141	2.0407
557.72171	2.0026
559.50888	1.97517
563.45243	1.98478
566.67096	1.94505
567.74972	1.96692
570.8949	1.91722
574.90557	1.89981
574.90029	1.86842
579.20286	1.88196
579.19682	1.84609
583.13933	1.84953
585.28439	1.8193
589.22709	1.82386
589.22181	1.79248
593.16432	1.79591
595.31079	1.7741
598.89579	1.78257
601.04227	1.76076
605.34342	1.76588
609.28537	1.76596
613.58718	1.77501
613.5819	1.74362
617.88428	1.75603
622.18628	1.76621
621.4656	1.74265
626.84268	1.75284
630.78539	1.7574
635.08871	1.77542
635.08343	1.74403
639.67419	1.76654
644.04957	1.7868
642.96996	1.75988
647.70415	1.78283
652.29431	1.80175
656.8856	1.8274
655.16095	1.80046
660.61412	1.83689
665.20519	1.86118
665.19953	1.82756
669.79037	1.85051
668.0664	1.82761
673.51957	1.86403
678.10894	1.87825
682.41226	1.89626
686.71408	1.90531
691.0191	1.93342
690.29766	1.90538
695.31865	1.92902
699.61896	1.9291
704.20595	1.92919
708.2224	1.94608
706.785	1.92251
712.52214	1.9428
716.82357	1.9496
721.12501	1.95641
725.42645	1.96322
729.7294	1.97899
729.72411	1.94761
733.73969	1.95934
738.32774	1.96571
741.54637	1.92654
742.62541	1.9501
745.84413	1.91149
746.92345	1.93673
750.07089	1.90047
754.08496	1.90324
754.0793	1.86961
758.38074	1.87642
758.37583	1.84728
762.67802	1.85857
762.67274	1.82718
766.97531	1.84072
766.96965	1.80709
771.27109	1.8139
771.2658	1.78251
775.57064	1.80949
775.56498	1.77587
779.50862	1.78603
781.6534	1.75413
785.59638	1.76037
785.59072	1.72674
789.89367	1.74252
789.888	1.70889
794.19397	1.7426
794.18793	1.70673
798.4905	1.72026
798.4856	1.69112
802.49997	1.69568
806.00792	1.67221
807.08696	1.69577
810.23531	1.66489
814.24621	1.64883
818.54708	1.65227
822.85333	1.68766
821.41452	1.65569
825.72728	1.72975
827.15505	1.69615
830.31427	1.72984
834.3294	1.73888
838.26814	1.7199
840.4132	1.68968
844.35665	1.69872
844.35024	1.66061
847.9342	1.66292
848.28577	1.62258
851.21842	1.58766
857.22889	1.52859
857.22247	1.49048
861.23616	1.49101
864.38587	1.4682
865.82421	1.49737
868.68674	1.47164
872.98988	1.48854
872.98384	1.45267
877.29018	1.48862
877.28339	1.44827
881.58973	1.48422
881.58332	1.44611
886.24349	1.45517
890.18657	1.46197
890.18091	1.42834
894.48612	1.45757
894.48008	1.4217
898.78039	1.42178
903.08126	1.42523
907.38402	1.43988
907.37911	1.41074
911.96799	1.42203
915.98274	1.42884
920.28192	1.42219
924.22499	1.42899
926.01226	1.40213
929.24202	1.42909
930.31313	1.40557
933.47133	1.43321
937.48767	1.44942
937.482	1.4158
941.79024	1.46296
941.78344	1.4226
946.08903	1.45407
946.08262	1.41596
950.38632	1.43622
950.3799	1.39811
953.96651	1.41611
954.67681	1.37802
956.10458	1.34442
958.97561	1.36913
960.40134	1.32342
965.06516	1.35411
963.98414	1.31879
966.44079	1.43653
966.14618	1.38944
969.0055	1.34466
970.81673	1.46015
970.45064	1.41419
970.44384	1.37383
971.86935	1.32678
975.05046	1.4905
974.75472	1.43669
974.74792	1.39633
974.74226	1.36271
977.94133	1.63313
977.64574	1.58022
977.63895	1.53986
978.34736	1.49056
979.05578	1.44125
979.04898	1.4009
979.04143	1.35606
980.50884	1.55785
981.89981	1.30568
983.70633	1.39314
983.34061	1.34942
987.94232	1.43694
987.64695	1.38537
986.20974	1.36293
989.11115	1.56811
989.10341	1.52215
989.09812	1.49076
992.24398	1.44509
991.58965	1.38993
991.97405	1.54462
993.39994	1.49981
993.73273	1.34794
996.6163	1.44719
996.2502	1.40123
997.69949	1.49541
997.67685	1.3609
997.67213	1.33288
998.74041	1.29255
999.12538	1.4506
999.11858	1.41025
1000.81063	1.24349
1000.5407	1.34302
1003.73818	1.17831
1003.38719	1.22202
1004.80666	1.1391
1007.67919	1.17278
1009.46513	1.13807
1013.76798	1.15328
1012.68753	1.12132
1017.42353	1.15504
1020.85992	1.13224
1024.87286	1.12828
1029.17543	1.14181
1033.47687	1.14862
1037.77831	1.15543
1037.77302	1.12404
1041.7874	1.1286
1046.01376	1.11523
1048.15882	1.08501
1052.10058	1.08396
1052.0953	1.05258
1056.39711	1.06163
1060.33906	1.0617
1063.84803	1.04428
1067.86459	1.06185
1067.85893	1.02822
1072.1649	1.06193
1071.44309	1.03165
1076.82017	1.04184
1080.40375	1.04191
1082.1914	1.01728
1085.06242	1.042
1089.0038	1.03871
1091.14857	1.00681
1095.08929	0.9996
1095.08439	0.97045
1099.38431	0.96829
1103.68613	0.97734
1103.68085	0.94596
1107.98323	0.95837
1112.58686	1.05732
1112.29127	1.00441
1112.28523	0.96854
1110.8484	0.94834
1116.5878	0.98207
1116.58214	0.94845
1120.52522	0.95525
1125.18388	0.95534
1129.48419	0.95542
1133.42613	0.9555
1138.08555	0.96007
1138.08065	0.93092
1142.38284	0.94222
1146.68314	0.9423
1151.34181	0.94239
1155.28527	0.95143
1159.30009	0.95868
1162.45037	0.93924
1167.03611	0.93193
1171.05003	0.9338
1171.04513	0.90465
1175.34732	0.91595
1179.36139	0.91871
1182.79869	0.90129
1186.81367	0.90944
1191.1151	0.91625
1195.41541	0.91633
1199.71949	0.93883
1199.71421	0.90745
1204.01659	0.91986
1208.32199	0.9502
1206.88289	0.91655
1212.62494	0.96598
1212.61852	0.92787
1216.91996	0.93468
1216.91467	0.90329
1220.92829	0.90337
1224.36582	0.88729
1228.37989	0.89006
1232.96507	0.87939
1236.97597	0.86332
1241.27628	0.86341
1245.57658	0.86349
1249.8784	0.87254
1254.18361	0.90176
1258.48844	0.92875
1263.08306	0.97412
1261.35682	0.93777
1266.81361	0.99571
1271.76055	1.00522
1275.70136	0.99857
1275.6957	0.96495
1279.27929	0.96501
1279.98959	0.92692
1282.85212	0.90119
1285.99945	0.86426
1290.01005	0.8464
1289.28843	0.81725
1293.15531	0.79714
1297.16666	0.78377
1297.16138	0.75239
1301.46319	0.76143
1301.45828	0.73229
1305.76048	0.74358
1310.06078	0.74367
1314.36109	0.74375
1318.66347	0.75616
1323.32912	0.79772
1322.24838	0.76407
1324.41174	0.84258
1325.85404	0.89529
1327.31805	1.0769
1327.66792	1.02647
1326.58605	0.9861
1326.57925	0.94574
1325.83876	0.8045
1328.78206	1.25852
1328.77394	1.21032
1328.76715	1.16997
1328.76036	1.12961
1327.28125	0.85833
1331.6544	1.29108
1332.09975	1.09829
1333.08029	1.24627
1333.07349	1.20592
1333.0667	1.16556
1333.06085	1.13082
1334.47824	1.03557
1334.48579	1.0804
1335.90489	0.99524
1335.89847	0.95713
1338.76232	0.93925
1340.49173	0.99443
1342.58444	0.93708
1343.05395	0.88777
1343.04715	0.84742
1344.47417	0.80934
1345.90006	0.76453
1349.04818	0.73231
1353.06006	0.72207
1353.05478	0.69069
1357.35961	0.71767
1357.35395	0.68404
1361.36916	0.69353
1364.51886	0.67073
1365.95796	0.70438
1368.81917	0.67081
1370.25751	0.69998
1373.11985	0.67313
1374.9158	0.69783
1378.85831	0.70127
1378.85265	0.66764
1383.15767	0.69575
1383.15163	0.65988
1387.45798	0.69583
1387.45307	0.66668
1391.75413	0.67125
1394.9754	0.64777
1396.05444	0.67133
1399.20392	0.64718
1403.22048	0.66474
1403.21482	0.63112
1407.51928	0.65586
1407.51399	0.62447
1411.52987	0.638
1416.11913	0.65154
1416.11347	0.61791
1420.41491	0.62472
1424.71521	0.6248
1429.01552	0.62489
1433.31582	0.62497
1437.61613	0.62505
1441.91643	0.62513
1446.50388	0.62791
1444.77991	0.60501
1450.51705	0.6253
1454.81735	0.62538
1459.11917	0.63443
1459.11388	0.60304
1463.4157	0.61209
1467.716	0.61218
1472.01631	0.61226
1476.31661	0.61234
1480.61692	0.61242
1484.91722	0.61251
1489.21753	0.61259
1493.51783	0.61267
1498.10302	0.602
1501.75669	0.59265
1506.77371	0.59275
1510.3573	0.59282
1515.01483	0.58618
1519.3174	0.59971
1523.32876	0.58634
1526.76628	0.57026
1530.78035	0.57303
1535.08066	0.57311
1539.38097	0.5732
1543.68127	0.57328
1547.98158	0.57336
1552.28188	0.57344
1556.2955	0.57352
1559.44623	0.55677
1563.7471	0.56021
1568.0474	0.56029
1572.34771	0.56038
1576.64801	0.56046
1580.94832	0.56054
1585.24863	0.56062
1589.26224	0.5607
1593.48861	0.54733
1598.14728	0.54742
1602.44758	0.5475
1606.74789	0.54758
1611.04819	0.54767
1615.3485	0.54775
1619.6488	0.54783
1623.94911	0.54791
1628.24942	0.548
1632.26077	0.53462
1635.6983	0.51855
1639.71237	0.52131
1644.30457	0.55234
1642.57811	0.51464
1645.74865	0.61559
1648.31694	0.54502
1648.32657	0.60218
1651.46631	0.52019
1655.48015	0.52162
1659.78046	0.5217
1663.72297	0.52514
1665.86944	0.50332
1669.45388	0.50843
1674.11255	0.50852
1678.41285	0.5086
1682.71316	0.50869
1687.01346	0.50877
1691.31377	0.50885
1695.61634	0.52238
1699.20219	0.5359
1699.91362	0.50453
1704.21468	0.5091
1708.51499	0.50918
1712.81529	0.50926
1717.1156	0.50935
1721.41591	0.50943
1725.71621	0.50951
1730.37374	0.50287
1734.02787	0.49622
1738.61486	0.49631
1742.91517	0.49639
1747.21547	0.49647
1751.51578	0.49655
1755.81608	0.49664
1760.11639	0.49672
1764.0572	0.49007
1765.84447	0.4632
1768.71549	0.48792
1770.50313	0.46329
1774.44621	0.47009
1778.74652	0.47017
1783.04682	0.47026
1787.34713	0.47034
1791.64517	0.45697
1795.94623	0.46154
1799.88969	0.47058
1802.03644	0.45044
1805.97952	0.45724
1810.27983	0.45733
1814.58164	0.46638
1814.57598	0.43275
1818.87817	0.44404
1822.82069	0.44748
1824.96659	0.4223
1828.90995	0.43078
1832.92357	0.43086
1836.3611	0.41478
1840.01794	0.42427
1841.80596	0.40188
1844.67925	0.44005
1846.46585	0.40926
1850.41016	0.42335
1855.06958	0.42792
1853.98941	0.39763
1859.0136	0.44033
1859.00794	0.4067
1863.3107	0.42135
1867.6127	0.43152
1867.60591	0.39117
1871.90848	0.4047
1876.49819	0.42093
1874.77422	0.39803
1880.22512	0.421
1883.66242	0.40358
1887.31904	0.41172
1889.46466	0.38486
1893.40774	0.39166
1897.70956	0.40071
1897.70352	0.36484
1902.00835	0.39183
1902.00231	0.35596
1906.30866	0.39191
1906.30262	0.35604
1910.60745	0.38303
1910.60217	0.35164
1915.2648	0.37527
1914.18463	0.34498
1919.20655	0.37422
1919.20014	0.33611
1923.50686	0.37431
1923.50158	0.34292
1927.80339	0.35197
1932.10596	0.3655
1936.404	0.35214
1940.70431	0.35222
1945.00461	0.3523
1949.30492	0.35238
1953.60522	0.35246
1957.90553	0.35255
1962.20583	0.35263
1966.50388	0.33926
1970.51749	0.33934
1975.10449	0.33943
1979.40479	0.33951
1983.7051	0.33959
1988.0054	0.33967
1992.30571	0.33975
1996.60601	0.33984
2000.90632	0.33992
2005.20662	0.34
2009.50693	0.34008
2013.80723	0.34017
2018.10754	0.34025
2022.40785	0.34033
2026.70758	0.33705
2029.85695	0.31223
2033.8708	0.31365
2038.1711	0.31373
2042.47141	0.31381
2046.77171	0.3139
2051.07202	0.31398
2055.37006	0.30061
2059.67037	0.30069
2063.97067	0.30077
2068.27098	0.30086
2072.57128	0.30094
2076.87159	0.30102
2080.88294	0.28765
2085.46993	0.28774
2089.77024	0.28782
2094.35723	0.28791
2098.36859	0.27453
2102.31053	0.27461
2106.9692	0.2747
2111.2695	0.27478
2115.56981	0.27486
2120.1568	0.27495
2123.81546	0.2952
2125.95995	0.26161
2129.89963	0.24823
2134.19993	0.24832
2138.78647	0.24571
2142.80281	0.26193
2142.79715	0.2283
2146.81416	0.24856
2150.25169	0.23248
2154.26576	0.23525
2158.92556	0.24206
2163.15419	0.24215
2166.81115	0.2523
2168.59898	0.2288
2171.75639	0.25173
2176.05669	0.25181
2174.33272	0.22891
2180.06986	0.24919
2184.37016	0.24928
2188.67179	0.25721
2192.61581	0.26961
2197.27674	0.28315
2201.57818	0.28996
2206.24109	0.31527
2205.16064	0.2833
2210.4725	0.33183
2208.74649	0.29682
2214.49438	0.381
2213.76861	0.32718
2215.93744	0.43819
2217.74339	0.5223
2217.37691	0.47409
2218.89319	0.96619
2218.88508	0.918
2218.87828	0.87764
2218.1544	0.83503
2218.1476	0.79468
2218.14081	0.75433
2218.13402	0.71398
2218.12722	0.67362
2218.12043	0.63327
2218.11364	0.59292
2217.39126	0.55928
2220.72507	1.63003
2220.42947	1.57712
2220.42268	1.53676
2220.41589	1.49641
2220.40909	1.45606
2220.4023	1.4157
2220.39551	1.37535
2220.38871	1.335
2220.38192	1.29465
2220.37513	1.25429
2220.36833	1.21394
2220.36154	1.17359
2220.35475	1.13324
2220.34795	1.09288
2220.34116	1.05253
2220.33437	1.01218
2222.71588	0.96739
2223.18387	0.90911
2223.17708	0.86876
2223.17029	0.82841
2222.80457	0.78468
2223.27898	1.47405
2223.27219	1.43369
2223.2654	1.39334
2223.2586	1.35299
2223.25181	1.31264
2223.24502	1.27228
2223.23822	1.23193
2223.23143	1.19158
2223.22464	1.15123
2223.21784	1.11087
2223.21105	1.07052
2223.20425	1.03017
2223.87229	0.74099
2223.86549	0.70064
2223.8587	0.66028
2223.8519	0.61993
2223.84511	0.57958
2223.83832	0.53923
2223.83152	0.49887
2225.97205	0.44175
2225.96394	0.39355
2225.24231	0.36439
2229.1101	0.34967
2232.04179	0.30904
2233.12055	0.33092
2235.97949	0.28389
2237.41859	0.31755
2240.28121	0.29238
2244.58255	0.29863
2248.88531	0.31328
2253.47351	0.32054
2251.74954	0.29765
2257.48555	0.31121
2261.78472	0.30456
2266.08503	0.30465
2270.09864	0.30472
2273.53617	0.28865
2277.19188	0.29141
2281.85055	0.2915
2285.86417	0.29157
2289.01489	0.27482
2293.31576	0.27827
2297.90276	0.27835
2301.55802	0.27842
2306.21668	0.27851
2310.51699	0.27859
2315.17452	0.27196
2319.40021	0.25455
2323.41337	0.25194
2327.42473	0.23857
2332.01172	0.23865
2336.31202	0.23874
2340.61052	0.22806
2342.04067	0.20858
2344.91113	0.22993
2349.21068	0.22553
2353.51098	0.22561
2357.81129	0.2257
2362.39647	0.21502
2366.05014	0.20568
2370.42099	0.19904
2373.85851	0.18296
2377.87259	0.18573
2382.17289	0.18581
2381.45221	0.16226
2386.75762	0.17245
2391.06336	0.20481
2390.76935	0.16132
2391.50381	0.26669
2393.96193	0.39318
2393.66604	0.33847
2393.66075	0.30709
2396.54574	0.41475
2396.53895	0.3744
2397.24887	0.33406
2397.24208	0.29371
2397.23528	0.25335
2397.94558	0.21526
2399.7319	0.18278
2403.67366	0.18174
2403.66838	0.15035
2407.97019	0.1594
2412.62773	0.15277
2416.85342	0.13536
2420.86658	0.13275
2425.16689	0.13283
2429.46719	0.13291
2433.7675	0.133
2437.78112	0.13307
2440.93165	0.1152
2445.23271	0.11976
2449.81789	0.10909
2453.83332	0.11993
2458.13137	0.10656
2462.43224	0.11001
2466.73084	0.1
2471.03228	0.10681
2475.33259	0.10689
2479.63289	0.10697
2483.9332	0.10705
2487.51622	0.10376